File: Interfaces/New folder/R1XR SiOx-Permalloy-refl.dat
# intensity: 1.02055
# background: 0
#           Q (1/A)             dQ (1/A)                    R                   dR               theory              fresnel
     0.0483642 0.000750703       0.951435     0.00501004    0.91932   0.0166297
     0.0497867 0.000750709        0.940446     0.00496697    0.915661    0.0152113
     0.0512091 0.000750715        0.924836     0.00490573    0.909414   0.0132569
     0.0526316    0.000750722        0.915079      0.0048674    0.90203   0.0115583
      0.0540541 0.000750729       0.891643     0.00477517     0.893402   0.010134
     0.0554765 0.000750736       0.876236     0.00471441    0.883082  0.00893068
     0.056899 0.000750743       0.854327     0.00462784    0.870422  0.00790696
     0.0583214 0.00075075       0.832077     0.0045397    0.854493  0.00703062
     0.0597439 0.000750758       0.797485     0.00440218    0.83398  0.00627615
     0.0611663 0.000750766       0.75512     0.00423288    0.80712  0.00562317
     0.0625888 0.000750774       0.71335     0.0040649    0.771823  0.0050553
      0.0640112 0.000750782       0.660983     0.0038526    0.726267   0.00455922
     0.0654336 0.00075079       0.611078     0.00364825    0.670361    0.00412404
     0.0668561 0.000750798        0.564065     0.00345359    0.607816  0.0037408
     0.0682785 0.000750807       0.524907     0.00328959    0.546974  0.00340206
      0.069701 0.000750816       0.497644     0.00317427    0.497833  0.00310164
     0.0711234 0.000750825        0.478614      0.00309314    0.466318  0.00283435
     0.0725458  0.000750834       0.474897      0.00307723    0.451258  0.00259581
     0.0739682 0.000750843       0.46576     0.00303803    0.446754   0.00238231
     0.0753907 0.000750853       0.468748     0.00305087    0.446415  0.00219072
     0.0768131 0.000750863       0.459408     0.0030107    0.44572  0.00201835
     0.0782355 0.000750872       0.451731     0.00297758    0.442226   0.00186288
     0.0796579  0.000750883        0.442621     0.00293814    0.434928  0.00172233
     0.0810804 0.000750893       0.427631     0.00287292     0.423616  0.001595
     0.0825028 0.000750903       0.407801     0.00278597    0.408481  0.0014794
     0.0839252 0.000750914        0.384917     0.00268459    0.389903  0.00137423
     0.0853476 0.000750925        0.364952     0.00259513    0.368365  0.00127838
     0.08677  0.000750936       0.339069     0.00247759    0.344421  0.00119084
     0.0881924 0.000750947       0.315984     0.00237106    0.318685  0.00111078
     0.0896148 0.000750958        0.291764     0.00225731    0.291828  0.00103741
      0.0910372 0.00075097       0.260541     0.00210718    0.264558 0.000970072
     0.0924596 0.000750981       0.233198     0.00197181    0.237601 0.000908175
     0.093882 0.000750993       0.203718     0.00182082    0.211661 0.000851194
     0.0953044 0.000751005       0.179902     0.00169407    0.187376 0.00079866
     0.0967268 0.000751018       0.159466      0.00158109    0.165271 0.000750161
     0.0981491 0.00075103       0.139746     0.00146747    0.14572 0.000705326
     0.0995715 0.000751043       0.126109     0.00138567    0.128923 0.000663825
      0.100994 0.000751056       0.112525     0.001301    0.114899 0.000625361
      0.102416 0.000751069       0.10232     0.00123491    0.103502 0.000589669
      0.103839 0.000751082      0.0923452     0.00116786   0.0944501 0.000556511
      0.105261 0.000751095       0.0864528     0.00112693   0.0873717 0.000525672
       0.106683 0.000751109      0.0807361      0.00108617     0.0818459 0.000496958
      0.108106 0.000751122      0.0782499     0.00106808   0.077445  0.000470195
      0.109528 0.000751136       0.074804     0.00104263   0.0737683 0.000445224
      0.11095 0.00075115      0.0717636     0.00101977   0.0704659 0.000421903
      0.112373 0.000751164      0.0692369     0.00100047   0.0672537 0.0004001
      0.113795  0.000751179      0.0658045    0.000973787   0.06392 0.000379698
      0.115218  0.000751194      0.0610469    0.000935832   0.0603251 0.000360591
      0.11664 0.000751208      0.056803    0.000900912   0.0563972 0.000342678
      0.118062  0.000751223       0.0511532    0.000852651   0.052124 0.000325872
      0.119485 0.000751238      0.045909    0.00080575   0.0475432 0.000310091
      0.120907 0.000751254      0.0424491    0.000773512   0.0427316 0.00029526
      0.122329  0.000751269      0.0366782    0.000717022   0.0377934 0.000281311
      0.123752 0.000751285       0.0327052    0.000675775   0.0328492 0.000268182
      0.125174 0.000751301      0.0279482    0.000623257   0.0280248 0.000255814
      0.126596 0.000751317      0.0231236    0.000565582   0.0234414  0.000244156
      0.128018 0.000751333      0.0191642    0.000513886   0.019207   0.000233158
      0.129441 0.00075135         0.0141359    0.000440271   0.0154094  0.000222776
      0.130863 0.000751366      0.0120353    5.97467e-05    0.0121115 0.000212969
       0.132285 0.000751383     0.00934358    4.93091e-05  0.00934895 0.000203698
      0.133708 0.0007514       0.00715996    4.06431e-05  0.00712958 0.000194929
       0.13513 0.000751417      0.0055888    3.42157e-05    0.00543549 0.00018663
      0.136552 0.000751434     0.00434438    2.89308e-05  0.00422648 0.00017877
      0.137975 0.000751452     0.00361686    2.57149e-05  0.00344482 0.000171322
      0.139397 0.00075147      0.00323263    2.39623e-05  0.00302073 0.000164259
      0.140819 0.000751488     0.0030659    2.31866e-05  0.002878 0.000157559
      0.142241 0.000751506     0.00318063    2.37194e-05  0.00293928 0.000151198
      0.143664 0.000751524     0.00337497    2.47064e-05  0.0031308  0.000145157
      0.145086 0.000751542      0.00369498    2.6159e-05  0.00338606 0.000139415
      0.146508 0.000751561     0.00397146    2.73929e-05  0.00364864 0.000133956
      0.14793 0.00075158     0.00421401    2.84613e-05  0.00387386 0.000128763
      0.149353  0.000751599     0.00432489    2.89462e-05  0.00402953 0.000123821
      0.150775 0.000751618     0.00441552    2.93399e-05  0.00409582  0.000119114
      0.152197 0.000751637     0.0044057    2.92972e-05  0.00406448 0.000114629
      0.153619 0.000751657     0.00423976    2.85742e-05    0.00393743 0.000110355
      0.155042 0.000751676     0.00402447    2.76282e-05  0.00372504 0.000106279
      0.156464  0.000751696     0.00376296    2.64656e-05  0.00344415  0.00010239
      0.157886 0.000751716     0.00337409    2.47043e-05  0.003116 9.86777e-05
      0.159308 0.000751736     0.00308012    2.33426e-05  0.00276418 9.5133e-05
      0.16073 0.000751757     0.00261366    2.11159e-05  0.00241272 9.17467e-05
      0.162153 0.000751777      0.00229319    1.95261e-05  0.00208439  8.85103e-05
      0.163575  0.000751798     0.00195542     1.77813e-05  0.00179926 8.54159e-05
      0.164997 0.000751819     0.0017194    1.65089e-05  0.00157359 8.2456e-05
      0.166419 0.00075184     0.0015365    1.54845e-05  0.00141908 7.96237e-05
      0.167841 0.000751861     0.00142039    1.48132e-05  0.0013424 7.69124e-05
      0.169264 0.000751883     0.00142606    1.48464e-05  0.0013452 7.43159e-05
       0.170686 0.000751905      0.00149257    1.52326e-05  0.00142427 7.18284e-05
      0.172108 0.000751926     0.00161643    1.59374e-05  0.00157205 6.94445e-05
      0.17353 0.000751949     0.00180153    1.69586e-05  0.00177737 6.7159e-05
      0.174952 0.000751971     0.00205382    1.82993e-05  0.00202629 6.4967e-05
      0.176374  0.000751993      0.00233435    1.97344e-05  0.00230307 6.2864e-05
      0.177797 0.000752016     0.00260543    2.10764e-05  0.00259113 6.08457e-05
      0.179219 0.000752038     0.00289959    2.24921e-05  0.00287405 5.89081e-05
      0.180641 0.000752061     0.0032174    2.39826e-05  0.00313641 5.70471e-05
      0.182063 0.000752084     0.003431    2.49652e-05  0.00336461 5.52593e-05
      0.183485 0.000752108     0.00358431    2.56622e-05  0.0035474 5.35412e-05
      0.184907 0.000752131      0.00375126      2.6414e-05  0.00367644 5.18895e-05
      0.186329 0.000752155     0.00387659    2.69733e-05  0.00374647 5.03013e-05
      0.187752 0.000752179     0.00385267    2.68668e-05  0.00375543 4.87735e-05
      0.189174  0.000752203     0.00376766    2.64872e-05  0.0037044 4.73034e-05
      0.190596 0.000752227     0.00367332    2.60639e-05  0.00359732 4.58885e-05
       0.192018 0.000752251     0.00348571    2.52152e-05  0.00344065 4.45262e-05
      0.19344 0.000752276     0.00333915    2.45448e-05  0.00324285 4.32142e-05
      0.194862 0.000752301     0.00308701    2.33761e-05  0.00301386  4.19503e-05
      0.196284 0.000752326     0.00285421    2.22767e-05  0.00276449 4.07324e-05
      0.197706 0.000752351     0.00256368    2.08728e-05  0.0025058 3.95585e-05
      0.199128 0.000752376     0.00231195    1.96223e-05  0.00224851 3.84267e-05
      0.20055 0.000752401     0.00203929    1.82246e-05  0.00200251 3.73352e-05
      0.201972 0.000752427      0.0018165    1.70415e-05  0.00177637 3.62823e-05
      0.203394 0.000752453     0.00159668    1.5829e-05  0.00157699 3.52663e-05
      0.204816 0.000752479     0.00142824    1.48628e-05  0.00140935    3.42857e-05
      0.206238 0.000752505     0.0012825     1.39951e-05  0.00127641 3.3339e-05
      0.20766  0.000752531      0.00119982    1.34865e-05  0.00117909 3.24249e-05
      0.209082 0.000752558      0.00112052    1.29867e-05  0.00111638 3.1542e-05
       0.210504 0.000752585     0.00109082    1.27957e-05   0.00108552 3.06889e-05
      0.211926 0.000752612     0.00108627    1.27657e-05  0.00108229 2.98646e-05
      0.213348 0.000752639     0.00109143     6.38196e-06  0.0011014 2.90678e-05
       0.21477 0.000752666     0.00112027    6.87719e-06  0.00113677 2.82975e-05
      0.216192 0.000752693     0.0011619    7.05035e-06  0.00118201 2.75526e-05
      0.217614 0.000752721     0.00121623     7.27497e-06  0.00123072  2.68321e-05
       0.219036 0.000752749     0.00125787    7.44613e-06  0.0012769  2.61351e-05
       0.220458 0.000752777     0.00129284     7.58937e-06  0.00131519 2.54606e-05
      0.22188  0.000752805     0.00133221    7.74968e-06  0.00134114 2.48077e-05
      0.223302 0.000752833      0.00134338    7.79494e-06   0.00135139 2.41757e-05
      0.224724 0.000752862     0.00132416    7.71661e-06  0.00134373 2.35637e-05
         0.226146 0.00075289      0.00130264     7.62876e-06  0.00131718 2.2971e-05
      0.227568 0.000752919     0.0012805    7.53817e-06  0.00127191 2.23969e-05
      0.22899 0.000752948     0.00119781    7.19851e-06   0.00120915 2.18406e-05
      0.230412 0.000752978       0.00113446    6.93603e-06  0.00113106 2.13015e-05
       0.231834 0.000753007     0.00106001    6.6248e-06  0.00104055 2.0779e-05
      0.233256 0.000753037     0.000946153    6.14184e-06 0.000941049 2.02724e-05
      0.234678 0.000753066    0.000848487    5.7195e-06 0.000836289 1.97813e-05
      0.2361  0.000753096    0.000743413     5.2542e-06  0.0007301 1.93049e-05
      0.237521 0.000753126     0.000638149    4.77398e-06 0.000626191 1.88428e-05
      0.238943 0.000753157    0.000536996    4.29479e-06 0.000527963 1.83945e-05
      0.240365 0.000753187     0.000450008    3.86381e-06 0.000438358 1.79594e-05
      0.241787 0.000753218    0.000363751    3.41239e-06 0.000359733 1.75372e-05
      0.243209 0.000753249    0.000298698    3.04975e-06 0.000293782 1.71273e-05
      0.244631 0.00075328    0.000242972    2.71741e-06 0.000241495 1.67293e-05
      0.246053  0.000753311    0.000198736    2.43357e-06 0.000203157  1.63429e-05
      0.247474 0.000753342    0.000174183    2.26555e-06 0.000178383 1.59676e-05
      0.248896 0.000753374    0.000159767    2.16241e-06 0.00016619 1.5603e-05
      0.250318 0.000753406    0.000153719    2.11814e-06 0.000165085 1.52488e-05
      0.25174 0.000753438    0.000153052    2.11314e-06 0.000173184 1.49045e-05
      0.253162 0.00075347     0.000172904    2.25594e-06 0.000188335 1.457e-05
      0.254584 0.000753502    0.000195487    2.41079e-06 0.000208249 1.42448e-05
      0.256005 0.000753535    0.000217421    2.55481e-06 0.000230626 1.39286e-05
      0.257427 0.000753567    0.000239514    2.69494e-06 0.000253275 1.36212e-05
      0.258849 0.0007536    0.000256498     2.79959e-06 0.000274217 1.33223e-05
      0.260271 0.000753633    0.000275266    2.91239e-06 0.000291772 1.30315e-05
      0.261692 0.000753666    0.000288952    2.99306e-06  0.000304621 1.27486e-05
      0.263114 0.0007537    0.000300312    3.0591e-06 0.000311849 1.24733e-05
      0.264536  0.000753733     0.000299363    3.05329e-06 0.000312958 1.22055e-05
      0.265958 0.000753767    0.000293953    3.02172e-06 0.000307863 1.19448e-05
      0.267379 0.000753801    0.00028338    2.95978e-06 0.000296868 1.1691e-05
      0.268801  0.000753835    0.00026602    2.85657e-06  0.000280613  1.1444e-05
       0.270223 0.000753869    0.000248255    2.7485e-06 0.000260021 1.12034e-05
      0.271644  0.000753904    0.000224947    2.6029e-06 0.000236222 1.09692e-05
      0.273066 0.000753938     0.0002021    2.45471e-06 0.000210481 1.07411e-05
      0.274488 0.000753973    0.000178008    2.29142e-06 0.000184116 1.05188e-05
       0.27591 0.000754008    0.00014367    2.0428e-06 0.000158421 1.03023e-05
      0.277331 0.000754043    0.000127284    1.91575e-06 0.000134598 1.00914e-05
       0.278753 0.000754078    0.000108162    1.75857e-06 0.000113696 9.88578e-06
      0.280174 0.000754114    8.81741e-05    1.58097e-06   9.65582e-05  9.68542e-06
      0.281596  0.00075415    7.62973e-05    1.46707e-06 8.37922e-05  9.49011e-06
      0.283018  0.000754185    6.67456e-05     1.36964e-06 7.57456e-05  9.29971e-06
      0.284439 0.000754221    6.38988e-05    1.3395e-06 7.25023e-05 9.11407e-06
      0.285861 0.000754258      6.49423e-05    1.35041e-06  7.38908e-05 8.93305e-06
      0.287283 0.000754294    6.87165e-05    1.38989e-06 7.95066e-05 8.7565e-06
      0.288704 0.000754331    8.12232e-05    1.5148e-06  8.87453e-05 8.5843e-06
      0.290126  0.000754367     9.36488e-05    1.63073e-06 0.000100844 8.41632e-06
       0.291547 0.000754404    0.000107048    1.7485e-06 0.000114929 8.25243e-06
      0.292969  0.000754442     0.000122563    1.87778e-06 0.000130068 8.09252e-06
      0.29439  0.000754479    0.000138079    2.00035e-06  0.00014532 7.93647e-06
      0.295812 0.000754516    0.000155433    2.13088e-06 0.000159785 7.78416e-06
      0.297234 0.000754554    0.000165461    2.20374e-06 0.00017265 7.6355e-06
      0.298655 0.000754592      0.000173893    2.26371e-06 0.000183221 7.49037e-06
      0.300077 0.00075463    0.000180412    2.30905e-06 0.000190959 7.34868e-06
      0.301498 0.000754668    0.000187687    2.35892e-06 0.000195494 7.21033e-06
      0.30292 0.000754706    0.000191366    2.38385e-06 0.000196638 7.07522e-06
      0.304341  0.000754745    0.000186584    2.35136e-06 0.000194383 6.94327e-06
      0.305763 0.000754784    0.000183396    2.32952e-06  0.000188895 6.81439e-06
      0.307184 0.000754823    0.000174704    2.26914e-06 0.00018049  6.68848e-06
      0.308606 0.000754862    0.000158713    2.155e-06   0.000169616  6.56547e-06
      0.310027 0.000754901    0.000150859    2.09721e-06 0.000156821 6.44528e-06
      0.311449 0.00075494    0.000137355    1.995e-06 0.000142719 6.32783e-06
      0.31287 0.00075498    0.00012404    1.89009e-06 0.000127955 6.21305e-06
      0.314291 0.00075502    0.000106128    1.74156e-06 0.000113174 6.10086e-06
      0.315713 0.00075506    9.86801e-05    1.67677e-06 9.89823e-05 5.9912e-06
      0.317134 0.0007551     7.97416e-05    1.50148e-06  8.59263e-05 5.88399e-06
        0.318556 0.00075514    7.17526e-05    1.42219e-06 7.4463e-05 5.77918e-06
      0.319977 0.000755181    6.45476e-05    1.34726e-06 6.4944e-05  5.67669e-06
      0.321398 0.000755221    5.70398e-05    1.26513e-06 5.76036e-05 5.57646e-06
      0.32282 0.000755262    5.26681e-05    1.21517e-06 5.25538e-05 5.47844e-06
      0.324241 0.000755303    4.7918e-05    1.15867e-06 4.97853e-05 5.38256e-06
      0.325663 0.000755344    4.9359e-05    1.1765e-06 4.91755e-05 5.28878e-06
      0.327084   0.000755386    5.10703e-05    1.1973e-06  5.0501e-05 5.19703e-06
      0.328505 0.000755427    5.67154e-05    1.26233e-06 5.34547e-05 5.10727e-06
      0.329927 0.000755469     5.9035e-05    1.28799e-06 5.76665e-05 5.01944e-06
      0.331348 0.000755511     6.44097e-05    1.34623e-06 6.27256e-05  4.93349e-06
      0.332769 0.000755553    6.92978e-05     1.3973e-06 6.82038e-05 4.84937e-06
      0.33419 0.000755595    7.65379e-05    1.47024e-06 7.36782e-05 4.76704e-06
      0.335612 0.000755638    8.02229e-05    1.50622e-06 7.87523e-05 4.68646e-06
      0.337033 0.000755681    8.98286e-05    1.59692e-06  8.30749e-05 4.60757e-06
      0.338454 0.000755723    8.81335e-05    1.58111e-06 8.6355e-05 4.53033e-06
      0.339876 0.000755766    9.03315e-05    1.60135e-06 8.83732e-05 4.45471e-06
      0.341297 0.00075581    8.92312e-05    1.59109e-06 8.8989e-05 4.38067e-06
      0.342718 0.000755853    8.83147e-05    1.58256e-06  8.81431e-05 4.30815e-06
      0.344139 0.000755896    8.72089e-05    1.57221e-06 8.58557e-05 4.23713e-06
      0.34556 0.00075594    8.42917e-05    1.54471e-06  8.22213e-05 4.16758e-06
      0.346982 0.000755984    7.66434e-05    1.47057e-06 7.73997e-05 4.09944e-06
      0.348403  0.000756028    7.01305e-05    1.40481e-06  7.16037e-05  4.03269e-06
      0.349824 0.000756072    6.1544e-05    1.31331e-06 6.50857e-05  3.9673e-06
      0.351245 0.000756117    5.93378e-05    1.28857e-06 5.81228e-05  3.90323e-06
      0.352666 0.000756161    5.10217e-05     1.19257e-06 5.10011e-05 3.84045e-06
      0.354087 0.000756206    4.56254e-05    1.12626e-06 4.40023e-05 3.77892e-06
      0.355509 0.000756251    3.63711e-05    3.42188e-07 3.74641e-05 3.71875e-06
      0.358351 0.000756341    2.58533e-05    2.9602e-07 2.63535e-05 3.60184e-06
      0.361193 0.000756432     1.80742e-05    2.44188e-07 1.88625e-05 3.48938e-06
      0.364035 0.000756524    1.5474e-05    2.25e-07 1.55046e-05 3.38128e-06
      0.366877 0.000756617    1.55533e-05     2.25575e-07 1.59414e-05 3.27734e-06
      0.369719  0.00075671    1.86936e-05    2.48514e-07 1.91781e-05 3.17737e-06
      0.372561 0.000756804    2.23963e-05    2.73759e-07 2.38287e-05 3.08119e-06
      0.375403 0.000756899    2.62702e-05    2.98555e-07  2.84289e-05 2.98862e-06
      0.378245 0.000756994    2.98107e-05     3.20094e-07 3.17271e-05 2.8995e-06
      0.381087 0.00075709    3.02811e-05    3.22895e-07 3.29026e-05 2.81369e-06
      0.383929  0.000757187    2.85496e-05    3.12551e-07 3.16743e-05  2.73103e-06
      0.386771 0.000757284    2.4834e-05    2.89462e-07 2.82931e-05 2.65138e-06
      0.389613 0.000757383    2.0037e-05    2.57705e-07 2.343e-05 2.57463e-06
      0.392454 0.000757481    1.47353e-05     2.18948e-07  1.79962e-05 2.50063e-06
      0.395296 0.000757581    1.05511e-05     1.84075e-07 1.29348e-05 2.42927e-06
      0.398137 0.000757681    7.37322e-06    1.5334e-07 9.03032e-06 2.36045e-06
      0.400979 0.000757782    5.56454e-06      1.33336e-07 6.76968e-06 2.29405e-06
      0.403821 0.000757884    5.384e-06    1.31241e-07 6.27666e-06 2.22996e-06
      0.406662 0.000757986    6.42307e-06    1.4327e-07 7.3249e-06 2.16811e-06
      0.409503 0.000758089    8.59463e-06     1.65848e-07 9.41794e-06 2.10838e-06
      0.412345 0.000758193    1.09164e-05    1.87369e-07  1.19138e-05 2.0507e-06
      0.415186 0.000758298    1.32712e-05    2.07217e-07 1.41646e-05 1.99498e-06
      0.418027 0.000758403    1.37906e-05    2.11369e-07 1.56429e-05 1.94115e-06
      0.420869 0.000758509    1.46254e-05    2.17929e-07 1.60314e-05 1.88911e-06
      0.42371 0.000758615     1.3823e-05    2.1157e-07 1.52616e-05 1.83882e-06
      0.426551 0.000758723    1.16358e-05    1.9346e-07 1.35014e-05 1.79018e-06
      0.429392 0.000758831    9.53728e-06    1.74691e-07 1.10967e-05 1.74315e-06
      0.432233 0.000758939    7.54385e-06    1.55122e-07  8.48604e-06 1.69765e-06
      0.435074 0.000759049    5.85682e-06    1.3669e-07 6.10564e-06 1.65363e-06
      0.437915 0.000759159    4.26893e-06    1.1701e-07 4.30496e-06 1.61103e-06
      0.440755 0.00075927    3.37195e-06    1.04397e-07 3.28839e-06 1.56979e-06
      0.443596 0.000759381    3.35903e-06    1.04353e-07 3.09097e-06 1.52986e-06
      0.446437 0.000759493     4.04303e-06    1.14208e-07 3.58949e-06 1.4912e-06
      0.449278 0.000759606    4.96735e-06    1.26348e-07 4.54302e-06 1.45375e-06
      0.452118 0.00075972    6.12598e-06    1.40177e-07 5.65181e-06 1.41747e-06
      0.454959    0.000759834    7.16144e-06    1.51584e-07 6.62129e-06 1.38232e-06
      0.457799 0.000759949    7.40615e-06    1.53745e-07 7.21821e-06 1.34825e-06
      0.46064 0.000760065    7.72294e-06     1.56703e-07  7.32175e-06 1.3152e-06
      0.46206 0.000760123    7.33004e-06    7.63907e-08  7.17874e-06 1.29905e-06
      0.46348 0.000760181    6.95363e-06    1.48639e-07 6.89636e-06 1.28316e-06
       0.4649 0.00076024    6.56573e-06    7.24209e-08 6.49534e-06 1.26754e-06
      0.467741 0.000760357    5.50875e-06    6.67289e-08 5.4504e-06 1.23699e-06
      0.470581 0.000760475    4.3694e-06    5.9369e-08 4.24212e-06 1.20733e-06
      0.473421  0.000760594    3.33963e-06    5.11571e-08 3.06379e-06 1.17855e-06
      0.476261 0.000760714     2.3004e-06    4.1948e-08 2.09471e-06 1.15063e-06
       0.479101 0.000760834    1.76975e-06    3.70106e-08 1.45703e-06 1.12353e-06
      0.481941  0.000760955    1.52434e-06    3.45107e-08 1.19836e-06 1.09723e-06
      0.484781 0.000761076    1.52157e-06      3.44531e-08  1.2906e-06  1.07169e-06
      0.487621 0.000761199    1.90608e-06    3.82458e-08 1.64353e-06 1.04689e-06
      0.490461 0.000761321    2.28924e-06    4.17309e-08 2.1288e-06 1.0228e-06
      0.493301 0.000761445    2.72344e-06    4.54473e-08  2.60867e-06 9.99405e-07
       0.496141 0.000761569    3.0069e-06    4.77504e-08 2.9635e-06 9.76675e-07
      0.49898 0.000761694    3.08152e-06    4.83506e-08 3.11263e-06  9.54588e-07
      0.50182 0.00076182    2.98244e-06    4.75792e-08 3.02556e-06 9.33123e-07
      0.504659 0.000761947    2.63733e-06    4.47817e-08 2.72222e-06 9.12258e-07
      0.507499 0.000762074    2.33257e-06    4.21767e-08 2.26347e-06 8.91974e-07
      0.510338 0.000762202    1.87371e-06    3.79812e-08 1.73486e-06  8.72251e-07
      0.513178 0.00076233    1.31076e-06    3.22145e-08 1.22728e-06 8.53071e-07
      0.516017 0.000762459    9.47194e-07    2.79442e-08 8.18818e-07  8.34416e-07
      0.518856  0.000762589    6.66091e-07    2.41803e-08 5.61017e-07 8.16268e-07
      0.521695 0.00076272    5.63896e-07    2.26878e-08  4.71785e-07 7.98612e-07
      0.524534   0.000762851    6.00935e-07     2.32631e-08 5.35544e-07 7.81431e-07
      0.527374 0.000762983    7.75855e-07    2.57581e-08 7.09834e-07 7.6471e-07
       0.530212 0.000763115    9.69025e-07    2.8274e-08 9.3636e-07 7.48435e-07
      0.533051 0.000763249    1.1845e-06    3.0857e-08 1.15389e-06 7.32591e-07
      0.53589 0.000763383    1.33779e-06    3.25539e-08 1.31029e-06 7.17164e-07
      0.538729 0.000763517    1.40592e-06    3.3273e-08 1.37153e-06 7.02142e-07
       0.541568 0.000763653    1.38821e-06     3.30639e-08 1.32617e-06 6.87511e-07
      0.544406 0.000763789    1.26304e-06    3.16686e-08 1.18505e-06  6.7326e-07
      0.547245 0.000763925    1.09731e-06    2.97383e-08 9.76742e-07 6.59377e-07
      0.550083 0.000764063    8.36551e-07    2.64141e-08 7.40048e-07 6.4585e-07
      0.552922 0.000764201    6.008e-07    2.30261e-08 5.15424e-07 6.32669e-07
      0.55576 0.00076434    4.4886e-07    2.05375e-08 3.37003e-07 6.19823e-07
      0.558599 0.000764479    3.04354e-07    1.78634e-08 2.2672e-07 6.07301e-07
      0.561437 0.000764619    2.90295e-07    1.74917e-08 1.91435e-07 5.95095e-07
      0.564275 0.00076476    2.99532e-07    1.74218e-08 2.23269e-07 5.83194e-07
      0.567113 0.000764901    3.73655e-07    1.86391e-08 3.02537e-07 5.71582e-07
      0.568532 0.000764972    3.96748e-07    1.14102e-08 3.51896e-07 5.65882e-07
      0.569951 0.000765044    5.03832e-07     2.10388e-08 4.03961e-07 5.60259e-07
      0.57137 0.000765115    5.16516e-07    1.3112e-08 4.53862e-07 5.54712e-07
      0.574208 0.000765258    6.14205e-07     1.45636e-08 5.37537e-07 5.43818e-07
      0.577046 0.000765402    6.34617e-07    1.47336e-08 5.84852e-07 5.33183e-07
      0.579884 0.000765547    6.8229e-07     1.45623e-08 5.86123e-07 5.22807e-07
      0.582722 0.000765692    6.48405e-07    1.38057e-08 5.41958e-07 5.12683e-07
      0.585559 0.000765838    5.65676e-07    1.30794e-08 4.6183e-07 5.02803e-07
       0.588397 0.000765984    4.82271e-07    1.23114e-08 3.61255e-07 4.9316e-07
       0.591234 0.000766131    3.16858e-07    1.06296e-08  2.58133e-07 4.83748e-07
        0.594072 0.000766279    2.25117e-07    9.59792e-09 1.69041e-07 4.74559e-07
      0.596909 0.000766428    1.37431e-07    8.50934e-09 1.06208e-07 4.65588e-07
      0.599746 0.000766577    1.08841e-07     8.1016e-09 7.56489e-08 4.56828e-07
      0.602584 0.000766727    9.94011e-08    7.95276e-09 7.67182e-08 4.48273e-07
      0.605421 0.000766878    1.29388e-07     8.35817e-09 1.02974e-07 4.39918e-07
      0.608258 0.000767029    1.81454e-07    9.03174e-09 1.4406e-07 4.31757e-07
      0.611095 0.000767181     2.25635e-07    9.56733e-09 1.88123e-07 4.23784e-07
      0.613932 0.000767334     2.76192e-07    1.01568e-08 2.24236e-07 4.15995e-07
      0.616769 0.000767487     3.24721e-07    1.06949e-08 2.44375e-07 4.08385e-07
      0.619605  0.000767641    3.32922e-07     1.07794e-08 2.44607e-07 4.00948e-07
      0.622442 0.000767796    3.05976e-07     1.04778e-08 2.25367e-07 3.93679e-07
      0.625279  0.000767951     2.63485e-07    9.98892e-09 1.90867e-07 3.86575e-07
      0.628115 0.000768107    2.12185e-07    9.35749e-09 1.47847e-07 3.79631e-07
      0.630952 0.000768264    1.4624e-07    8.4887e-09 1.03993e-07 3.72842e-07
      0.633788 0.000768421    8.48019e-08    7.59585e-09 6.63576e-08 3.66204e-07
      0.636624 0.000768579    5.89603e-08    7.17619e-09  4.00748e-08 3.59713e-07
      0.639461 0.000768738    3.35693e-08    6.73936e-09 2.76033e-08 3.53366e-07
      0.642297 0.000768897     3.78274e-08    6.79982e-09 2.856e-08 3.47159e-07
      0.645133 0.000769057    5.65045e-08    7.09398e-09 4.01187e-08 3.41087e-07
       0.647969 0.000769218    9.47825e-08    7.67346e-09 5.78291e-08 3.35148e-07
      0.650805 0.000769379    1.2495e-07    8.10085e-09   7.66501e-08 3.29338e-07
      0.653641 0.000769541    1.40923e-07    8.31477e-09 9.19765e-08 3.23653e-07
      0.656476 0.000769704    1.5737e-07    8.56958e-09 1.00462e-07 3.18091e-07
       0.659312 0.000769867    1.41599e-07     8.38764e-09 1.00506e-07 3.12647e-07
      0.662148 0.000770031    1.3101e-07    8.27411e-09 9.23505e-08 3.0732e-07
      0.664983  0.000770196    1.01046e-07    7.88353e-09 7.78168e-08 3.02106e-07
      0.667819 0.000770361    7.78401e-08    7.57636e-09 5.97668e-08 2.97002e-07
      0.670654 0.000770527    3.96073e-08    6.93479e-09 4.14349e-08 2.92006e-07
      0.673489 0.000770694    3.31414e-08    6.78193e-09 2.57649e-08 2.87114e-07
      0.676325 0.000770861    1.58611e-08    6.43878e-09 1.48819e-08 2.82325e-07
      0.67916 0.000771029    7.14203e-09    6.23383e-09 9.78236e-09 2.77635e-07
      0.681995 0.000771198    1.98261e-08    6.4105e-09 1.02767e-08 2.73043e-07
      0.68483 0.000771367    2.45799e-08    6.49313e-09 1.5164e-08 2.68545e-07
      0.687665 0.000771537     6.11006e-08    7.10095e-09 2.25798e-08 2.64139e-07
      0.690499 0.000771708    5.23365e-08    6.95902e-09 3.04274e-08 2.59824e-07
      0.693334 0.000771879    7.03828e-08    7.24679e-09 3.68035e-08 2.55597e-07
      0.696169  0.000772051    8.0769e-08    7.4074e-09 4.03352e-08 2.51455e-07
       0.699003 0.000772224    6.23623e-08    7.10715e-09 4.03757e-08  2.47397e-07
      0.701838 0.000772397     7.50465e-08    7.29504e-09  3.70393e-08 2.43421e-07
      0.704672    0.000772571    4.74026e-08    6.83876e-09 3.10862e-08 2.39524e-07
       0.707506 0.000772745     3.48535e-08    6.61456e-09  2.36993e-08 2.35705e-07
      0.71034 0.000772921    2.36562e-08     6.40672e-09 1.62072e-08 2.31962e-07
      0.713175 0.000773097    1.5951e-08    6.26458e-09 9.81307e-09 2.28293e-07
      0.716009 0.000773273    7.3447e-09    6.10265e-09 5.38058e-09 2.24697e-07
      0.718843 0.00077345    1.38333e-08    6.21653e-09 3.30995e-09 2.21171e-07
      0.721676 0.000773628    1.04087e-08    6.14912e-09 3.51771e-09 2.17714e-07
      0.72451 0.000773807    2.00514e-08    6.3188e-09 5.51068e-09 2.14325e-07
      0.727344  0.000773986    3.40423e-08    6.58678e-09 8.5289e-09 2.11001e-07
      0.730177 0.000774166    2.93336e-08    6.5282e-09 1.17218e-08 2.07742e-07
      0.733011 0.000774346    2.68779e-08    6.50839e-09 1.43201e-08 2.04546e-07
      0.735844 0.000774527    3.38846e-08    6.65138e-09 1.5771e-08 2.01411e-07
      0.738678 0.000774709     3.86384e-08    6.75383e-09 1.5816e-08 1.98335e-07
      0.741511 0.000774891    1.46218e-08    6.34285e-09 1.4503e-08 1.95319e-07
      0.744344 0.000775074    1.20083e-08    6.29982e-09 1.21389e-08  1.92359e-07
      0.747177   0.000775258    4.21304e-09    6.16242e-09 9.19868e-09  1.89456e-07
      0.75001 0.000775442    4.07787e-09    6.16365e-09 6.21417e-09 1.86607e-07
       0.752843   0.000775627   -1.31799e-08    5.84383e-09 3.6658e-09 1.83812e-07
      0.755675  0.000775813    7.36729e-09    6.1952e-09 1.89743e-09 1.81069e-07
      0.758508 0.000775999    8.78773e-10    6.04329e-09 1.06791e-09 1.78377e-07
      0.761341 0.000776186    9.23833e-10     6.01128e-09 1.14369e-09  1.75735e-07
      0.764173 0.000776374    1.96685e-08    6.32208e-09 1.92897e-09 1.73142e-07
      0.767006 0.000776562    1.20534e-08    6.15267e-09 3.12281e-09 1.70596e-07
      0.769838 0.000776751    1.68965e-09    5.99148e-09 4.38905e-09 1.68097e-07
      0.77267 0.000776941    2.24169e-08     6.39957e-09 5.42411e-09 1.65644e-07
      0.775502 0.000777131    1.85869e-08     6.36161e-09 6.01016e-09 1.63236e-07
      0.778334 0.000777321    6.19559e-09    6.16892e-09 6.04519e-09 1.60871e-07
      0.781166 0.000777513    5.51978e-09    6.1875e-09 5.54753e-09 1.58549e-07
      0.783998 0.000777705   -4.48333e-09    5.96685e-09 4.63684e-09 1.56269e-07
      0.78683 0.000777898    -3.22162e-09    5.95485e-09  3.4986e-09 1.5403e-07
      0.789661 0.000778091    9.0796e-09    6.14868e-09 2.57934e-09 1.52308e-07