File: Interfaces/1 SiOx-Permalloy/R1XR SiOx-Permalloy-refl.dat
# intensity: 1.04997
# background: 0
#           Q (1/A)             dQ (1/A)                    R                   dR               theory              fresnel
     0.0483642 0.000750703       0.951435     0.00501004    0.944403   0.0180933
     0.0497867 0.000750709        0.940446     0.00496697    0.940447   0.0165395
     0.0512091 0.000750715        0.924836     0.00490573     0.933651   0.0144008
     0.0526316    0.000750722        0.915079      0.0048674    0.925546   0.0125448
      0.0540541 0.000750729       0.891643     0.00477517    0.915979   0.0109907
     0.0554765 0.000750736       0.876236     0.00471441    0.904413  0.00967905
     0.056899 0.000750743       0.854327     0.00462784    0.890076  0.0085644
     0.0583214 0.00075075       0.832077     0.0045397    0.871867  0.00761109
     0.0597439 0.000750758       0.797485     0.00440218    0.848267  0.00679102
     0.0611663 0.000750766       0.75512     0.00423288    0.817321  0.0060818
     0.0625888 0.000750774       0.71335     0.0040649    0.776909  0.00546542
      0.0640112 0.000750782       0.660983     0.0038526    0.725646  0.0049273
     0.0654336 0.00075079       0.611078     0.00364825    0.664659  0.0044555
     0.0668561 0.000750798        0.564065     0.00345359    0.599491  0.00404021
     0.0682785 0.000750807       0.524907     0.00328959    0.53975  0.00367333
      0.069701 0.000750816       0.497644     0.00317427    0.494763  0.00334808
     0.0711234 0.000750825        0.478614      0.00309314    0.468158  0.00305881
     0.0725458  0.000750834       0.474897      0.00307723    0.456735  0.00280075
     0.0739682 0.000750843       0.46576     0.00303803    0.453969  0.00256987
     0.0753907 0.000750853       0.468748     0.00305087    0.453844  0.00236273
     0.0768131 0.000750863       0.459408     0.0030107    0.452446  0.00217643
     0.0782355 0.000750872       0.451731     0.00297758    0.447784  0.00200844
     0.0796579  0.000750883        0.442621     0.00293814    0.43911   0.00185662
     0.0810804 0.000750893       0.427631     0.00287292    0.426352   0.0017191
     0.0825028 0.000750903       0.407801     0.00278597    0.409774  0.00159428
     0.0839252 0.000750914        0.384917     0.00268459    0.389809   0.00148075
     0.0853476 0.000750925        0.364952     0.00259513    0.366994  0.0013773
     0.08677  0.000750936       0.339069     0.00247759    0.341937  0.00128284
     0.0881924 0.000750947       0.315984     0.00237106    0.315307  0.00119645
     0.0896148 0.000750958        0.291764     0.00225731    0.287824  0.00111731
      0.0910372 0.00075097       0.260541     0.00210718    0.26023  0.00104468
     0.0924596 0.000750981       0.233198     0.00197181    0.233263 0.000977935
     0.093882 0.000750993       0.203718     0.00182082    0.207607 0.000916494
     0.0953044 0.000751005       0.179902     0.00169407    0.18385 0.000859858
     0.0967268 0.000751018       0.159466      0.00158109    0.162441 0.000807578
     0.0981491 0.00075103       0.139746     0.00146747    0.143664 0.000759253
     0.0995715 0.000751043       0.126109     0.00138567    0.127625 0.000714526
      0.100994 0.000751056       0.112525     0.001301    0.114262 0.000673077
      0.102416 0.000751069       0.10232     0.00123491    0.103369 0.00063462
      0.103839 0.000751082      0.0923452     0.00116786   0.0946366 0.000598896
      0.105261 0.000751095       0.0864528     0.00112693   0.0876879 0.000565674
       0.106683 0.000751109      0.0807361      0.00108617   0.0821227 0.000534744
      0.108106 0.000751122      0.0782499     0.00106808   0.07755 0.000505918
      0.109528 0.000751136       0.074804     0.00104263   0.073614 0.000479024
      0.11095 0.00075115      0.0717636     0.00101977    0.0700111  0.000453909
      0.112373 0.000751164      0.0692369     0.00100047   0.0664993 0.000430431
      0.113795  0.000751179      0.0658045    0.000973787   0.0629014 0.000408464
      0.115218  0.000751194      0.0610469    0.000935832   0.0591025 0.000387891
      0.11664 0.000751208      0.056803    0.000900912   0.0550452 0.000368607
      0.118062  0.000751223       0.0511532    0.000852651   0.0507223 0.000350514
      0.119485 0.000751238      0.045909    0.00080575    0.0461682 0.000333527
      0.120907 0.000751254      0.0424491    0.000773512   0.0414496 0.000317563
      0.122329  0.000751269      0.0366782    0.000717022   0.0366562 0.000302549
      0.123752 0.000751285       0.0327052    0.000675775    0.0318912 0.000288418
      0.125174 0.000751301      0.0279482    0.000623257   0.0272624 0.000275107
      0.126596 0.000751317      0.0231236    0.000565582   0.022874 0.000262561
      0.128018 0.000751333      0.0191642    0.000513886    0.0188198 0.000250726
      0.129441 0.00075135         0.0141359    0.000440271   0.0151765 0.000239554
      0.130863 0.000751366      0.0120353    5.97467e-05   0.0120003 0.000229002
       0.132285 0.000751383     0.00934358    4.93091e-05  0.00932422  0.000219027
      0.133708 0.0007514       0.00715996    4.06431e-05  0.00715713 0.000209593
       0.13513 0.000751417      0.0055888    3.42157e-05  0.00548525 0.000200664
      0.136552 0.000751434     0.00434438    2.89308e-05   0.00427455 0.000192207
      0.137975 0.000751452     0.00361686    2.57149e-05  0.00347451 0.000184195
      0.139397 0.00075147      0.00323263    2.39623e-05  0.00302263 0.000176597
      0.140819 0.000751488     0.0030659    2.31866e-05  0.00284925 0.000169389
      0.142241 0.000751506     0.00318063    2.37194e-05  0.0028823 0.000162547
      0.143664 0.000751524     0.00337497    2.47064e-05  0.0030517 0.000156049
      0.145086 0.000751542      0.00369498    2.6159e-05  0.003293 0.000149874
      0.146508 0.000751561     0.00397146    2.73929e-05  0.0035503 0.000144002
      0.14793 0.00075158     0.00421401    2.84613e-05  0.00377823 0.000138417
      0.149353  0.000751599     0.00432489    2.89462e-05  0.00394305  0.000133101
      0.150775 0.000751618     0.00441552    2.93399e-05  0.00402291 0.000128039
      0.152197 0.000751637     0.0044057    2.92972e-05  0.00400739 0.000123216
      0.153619 0.000751657     0.00423976    2.85742e-05  0.00389642 0.000118619
      0.155042 0.000751676     0.00402447    2.76282e-05  0.00369877 0.000114236
      0.156464  0.000751696     0.00376296    2.64656e-05  0.00343018 0.000110054
      0.157886 0.000751716     0.00337409    2.47043e-05  0.00311131  0.000106062
      0.159308 0.000751736     0.00308012    2.33426e-05  0.0027657 0.000102251
      0.16073 0.000751757     0.00261366    2.11159e-05   0.00241772  9.86095e-05
      0.162153 0.000751777      0.00229319    1.95261e-05  0.00209073 9.51296e-05
      0.163575  0.000751798     0.00195542     1.77813e-05  0.00180552 9.18024e-05
      0.164997 0.000751819     0.0017194    1.65089e-05  0.00157909 8.86199e-05
      0.166419 0.00075184     0.0015365    1.54845e-05  0.00142373 8.55747e-05
      0.167841 0.000751861     0.00142039    1.48132e-05  0.00134652 8.26596e-05
      0.169264 0.000751883     0.00142606    1.48464e-05  0.00134928 7.9868e-05
       0.170686 0.000751905      0.00149257    1.52326e-05  0.00142875 7.71937e-05
      0.172108 0.000751926     0.00161643    1.59374e-05  0.00157712 7.46308e-05
      0.17353 0.000751949     0.00180153    1.69586e-05  0.00178285 7.21737e-05
      0.174952 0.000751971     0.00205382    1.82993e-05  0.00203158  6.98172e-05
      0.176374  0.000751993      0.00233435    1.97344e-05  0.00230718 6.75565e-05
      0.177797 0.000752016     0.00260543    2.10764e-05  0.00259278 6.53868e-05
      0.179219 0.000752038     0.00289959    2.24921e-05  0.00287181 6.33038e-05
      0.180641 0.000752061     0.0032174    2.39826e-05  0.00312891 6.13033e-05
      0.182063 0.000752084     0.003431    2.49652e-05  0.00335066 5.93815e-05
      0.183485 0.000752108     0.00358431    2.56622e-05   0.00352625 5.75346e-05
      0.184907 0.000752131      0.00375126      2.6414e-05  0.00364781 5.57592e-05
      0.186329 0.000752155     0.00387659    2.69733e-05  0.00371068  5.4052e-05
      0.187752 0.000752179     0.00385267    2.68668e-05  0.00371339  5.24098e-05
      0.189174  0.000752203     0.00376766    2.64872e-05  0.00365756 5.08296e-05
      0.190596 0.000752227     0.00367332    2.60639e-05  0.00354759 4.93087e-05
       0.192018 0.000752251     0.00348571    2.52152e-05  0.0033902 4.78445e-05
      0.19344 0.000752276     0.00333915    2.45448e-05  0.00319399 4.64343e-05
      0.194862 0.000752301     0.00308701    2.33761e-05  0.00296882 4.50759e-05
      0.196284 0.000752326     0.00285421    2.22767e-05  0.00272524 4.37669e-05
      0.197706 0.000752351     0.00256368    2.08728e-05  0.00247391 4.25052e-05
      0.199128 0.000752376     0.00231195    1.96223e-05   0.00222504 4.12887e-05
      0.20055 0.000752401     0.00203929    1.82246e-05  0.00198792 4.01156e-05
      0.201972 0.000752427      0.0018165    1.70415e-05  0.0017705 3.8984e-05
      0.203394 0.000752453     0.00159668    1.5829e-05  0.00157911  3.7892e-05
      0.204816 0.000752479     0.00142824    1.48628e-05  0.00141823 3.68382e-05
      0.206238 0.000752505     0.0012825     1.39951e-05  0.00129043 3.58208e-05
      0.20766  0.000752531      0.00119982    1.34865e-05  0.0011964 3.48384e-05
      0.209082 0.000752558      0.00112052    1.29867e-05   0.001135 3.38895e-05
       0.210504 0.000752585     0.00109082    1.27957e-05  0.00110354 3.29727e-05
      0.211926 0.000752612     0.00108627    1.27657e-05  0.001098 3.20869e-05
      0.213348 0.000752639     0.00109143     6.38196e-06  0.00111337 3.12306e-05
       0.21477 0.000752666     0.00112027    6.87719e-06  0.00114397 3.04028e-05
      0.216192 0.000752693     0.0011619    7.05035e-06  0.00118381  2.96023e-05
      0.217614 0.000752721     0.00121623     7.27497e-06  0.00122696 2.8828e-05
       0.219036 0.000752749     0.00125787    7.44613e-06  0.0012678 2.80789e-05
       0.220458 0.000752777     0.00129284     7.58937e-06  0.00130135 2.73541e-05
      0.22188  0.000752805     0.00133221    7.74968e-06  0.00132345 2.66525e-05
      0.223302 0.000752833      0.00134338    7.79494e-06  0.00133093 2.59734e-05
      0.224724 0.000752862     0.00132416    7.71661e-06  0.00132171  2.53157e-05
         0.226146 0.00075289      0.00130264     7.62876e-06  0.00129481 2.46788e-05
      0.227568 0.000752919     0.0012805    7.53817e-06  0.00125032 2.40619e-05
      0.22899 0.000752948     0.00119781    7.19851e-06  0.00118935 2.34641e-05
      0.230412 0.000752978       0.00113446    6.93603e-06   0.00111386 2.28849e-05
       0.231834 0.000753007     0.00106001    6.6248e-06  0.00102653 2.23234e-05
      0.233256 0.000753037     0.000946153    6.14184e-06 0.000930539 2.17791e-05
      0.234678 0.000753066    0.000848487    5.7195e-06 0.000829386 2.12513e-05
      0.2361  0.000753096    0.000743413     5.2542e-06 0.000726677 2.07394e-05
      0.237521 0.000753126     0.000638149    4.77398e-06 0.000625929 2.02429e-05
      0.238943 0.000753157    0.000536996    4.29479e-06 0.000530396 1.97612e-05
      0.240365 0.000753187     0.000450008    3.86381e-06 0.000442916 1.92937e-05
      0.241787 0.000753218    0.000363751    3.41239e-06 0.00036579 1.884e-05
      0.243209 0.000753249    0.000298698    3.04975e-06 0.000300704 1.83996e-05
      0.244631 0.00075328    0.000242972    2.71741e-06 0.000248676 1.7972e-05
      0.246053  0.000753311    0.000198736    2.43357e-06 0.000210056 1.75568e-05
      0.247474 0.000753342    0.000174183    2.26555e-06 0.000184549 1.71535e-05
      0.248896 0.000753374    0.000159767    2.16241e-06 0.000171273 1.67618e-05
      0.250318 0.000753406    0.000153719    2.11814e-06 0.000168852 1.63812e-05
      0.25174 0.000753438    0.000153052    2.11314e-06 0.000175513 1.60113e-05
      0.253162 0.00075347     0.000172904    2.25594e-06  0.00018921  1.56519e-05
      0.254584 0.000753502    0.000195487    2.41079e-06 0.000207747  1.53025e-05
      0.256005 0.000753535    0.000217421    2.55481e-06  0.000228899 1.49628e-05
      0.257427 0.000753567    0.000239514    2.69494e-06 0.000250534 1.46325e-05
      0.258849 0.0007536    0.000256498     2.79959e-06 0.000270711 1.43113e-05
      0.260271 0.000753633    0.000275266    2.91239e-06 0.000287768 1.39988e-05
      0.261692 0.000753666    0.000288952    2.99306e-06 0.000300387 1.36949e-05
      0.263114 0.0007537    0.000300312    3.0591e-06 0.000307639 1.33992e-05
      0.264536  0.000753733     0.000299363    3.05329e-06 0.000308999 1.31114e-05
      0.265958 0.000753767    0.000293953    3.02172e-06 0.000304345 1.28313e-05
      0.267379 0.000753801    0.00028338    2.95978e-06 0.000293936  1.25587e-05
      0.268801  0.000753835    0.00026602    2.85657e-06 0.000278366 1.22933e-05
       0.270223 0.000753869    0.000248255    2.7485e-06 0.000258508 1.20349e-05
      0.271644  0.000753904    0.000224947    2.6029e-06 0.000235448 1.17832e-05
      0.273066 0.000753938     0.0002021    2.45471e-06  0.000210407 1.15381e-05
      0.274488 0.000753973    0.000178008    2.29142e-06 0.000184665 1.12993e-05
       0.27591 0.000754008    0.00014367    2.0428e-06 0.000159486 1.10667e-05
      0.277331 0.000754043    0.000127284    1.91575e-06 0.000136049 1.08401e-05
       0.278753 0.000754078    0.000108162    1.75857e-06 0.000115388 1.06192e-05
      0.280174 0.000754114    8.81741e-05    1.58097e-06 9.83418e-05  1.0404e-05
      0.281596  0.00075415    7.62973e-05    1.46707e-06 8.5518e-05 1.01941e-05
      0.283018  0.000754185    6.67456e-05     1.36964e-06 7.72737e-05 9.98959e-06
      0.284439 0.000754221    6.38988e-05    1.3395e-06 7.37085e-05  9.79015e-06
      0.285861 0.000754258      6.49423e-05    1.35041e-06 7.46722e-05 9.59567e-06
      0.287283 0.000754294    6.87165e-05    1.38989e-06 7.97855e-05 9.40601e-06
      0.288704 0.000754331    8.12232e-05    1.5148e-06  8.84718e-05 9.22101e-06
      0.290126  0.000754367     9.36488e-05    1.63073e-06 9.99972e-05 9.04055e-06
       0.291547 0.000754404    0.000107048    1.7485e-06 0.000113517  8.86448e-06
      0.292969  0.000754442     0.000122563    1.87778e-06  0.000128126 8.69269e-06
      0.29439  0.000754479    0.000138079    2.00035e-06 0.000142908 8.52504e-06
      0.295812 0.000754516    0.000155433    2.13088e-06 0.000156983 8.36142e-06
      0.297234 0.000754554    0.000165461    2.20374e-06 0.000169551 8.20171e-06
      0.298655 0.000754592      0.000173893    2.26371e-06 0.00017993 8.04581e-06
      0.300077 0.00075463    0.000180412    2.30905e-06 0.000187584 7.89359e-06
      0.301498 0.000754668    0.000187687    2.35892e-06 0.000192143 7.74496e-06
      0.30292 0.000754706    0.000191366    2.38385e-06 0.00019341 7.59982e-06
      0.304341  0.000754745    0.000186584    2.35136e-06 0.000191368 7.45807e-06
      0.305763 0.000754784    0.000183396    2.32952e-06 0.000186166 7.31961e-06
      0.307184 0.000754823    0.000174704    2.26914e-06 0.000178104 7.18436e-06
      0.308606 0.000754862    0.000158713    2.155e-06 0.000167609  7.05221e-06
      0.310027 0.000754901    0.000150859    2.09721e-06 0.00015521 6.9231e-06
      0.311449 0.00075494    0.000137355    1.995e-06 0.000141501 6.79693e-06
      0.31287 0.00075498    0.00012404    1.89009e-06 0.00012711 6.67363e-06
      0.314291 0.00075502    0.000106128    1.74156e-06 0.000112663 6.55311e-06
      0.315713 0.00075506    9.86801e-05    1.67677e-06  9.87586e-05  6.43531e-06
      0.317134 0.0007551     7.97416e-05    1.50148e-06  8.5931e-05 6.32014e-06
        0.318556 0.00075514    7.17526e-05    1.42219e-06 7.46326e-05 6.20754e-06
      0.319977 0.000755181    6.45476e-05    1.34726e-06 6.52136e-05 6.09744e-06
      0.321398 0.000755221    5.70398e-05    1.26513e-06 5.79105e-05 5.98978e-06
      0.32282 0.000755262    5.26681e-05    1.21517e-06 5.28403e-05  5.88448e-06
      0.324241 0.000755303    4.7918e-05    1.15867e-06 5.00017e-05 5.78149e-06
      0.325663 0.000755344    4.9359e-05    1.1765e-06 4.92819e-05 5.68074e-06
      0.327084   0.000755386    5.10703e-05    1.1973e-06 5.04684e-05 5.58219e-06
      0.328505 0.000755427    5.67154e-05    1.26233e-06 5.32661e-05 5.48576e-06
      0.329927 0.000755469     5.9035e-05    1.28799e-06 5.73162e-05 5.39141e-06
      0.331348 0.000755511     6.44097e-05    1.34623e-06 6.22189e-05  5.29908e-06
      0.332769 0.000755553    6.92978e-05     1.3973e-06 6.75554e-05 5.20872e-06
      0.33419 0.000755595    7.65379e-05    1.47024e-06 7.29105e-05 5.12029e-06
      0.335612 0.000755638    8.02229e-05    1.50622e-06 7.78938e-05 5.03372e-06
      0.337033 0.000755681    8.98286e-05    1.59692e-06 8.21576e-05 4.94898e-06
      0.338454 0.000755723    8.81335e-05    1.58111e-06  8.54124e-05 4.86601e-06
      0.339876 0.000755766    9.03315e-05    1.60135e-06 8.74384e-05 4.78478e-06
      0.341297 0.00075581    8.92312e-05    1.59109e-06 8.80928e-05 4.70524e-06
      0.342718 0.000755853    8.83147e-05    1.58256e-06 8.73124e-05 4.62735e-06
      0.344139 0.000755896    8.72089e-05    1.57221e-06 8.51126e-05  4.55106e-06
      0.34556 0.00075594    8.42917e-05    1.54471e-06 8.15822e-05 4.47634e-06
      0.346982 0.000755984    7.66434e-05    1.47057e-06 7.68745e-05 4.40315e-06
      0.348403  0.000756028    7.01305e-05    1.40481e-06 7.11965e-05  4.33145e-06
      0.349824 0.000756072    6.1544e-05    1.31331e-06  6.47949e-05 4.26121e-06
      0.351245 0.000756117    5.93378e-05    1.28857e-06 5.79415e-05 4.19239e-06
      0.352666 0.000756161    5.10217e-05     1.19257e-06 5.09183e-05 4.12495e-06
      0.354087 0.000756206    4.56254e-05    1.12626e-06 4.40036e-05 4.05886e-06
      0.355509 0.000756251    3.63711e-05    3.42188e-07 3.75314e-05 3.99422e-06
      0.358351 0.000756341    2.58533e-05    2.9602e-07 2.65026e-05 3.86864e-06
      0.361193 0.000756432     1.80742e-05    2.44188e-07 1.90306e-05 3.74785e-06
      0.364035 0.000756524    1.5474e-05    2.25e-07  1.56431e-05  3.63173e-06
      0.366877 0.000756617    1.55533e-05     2.25575e-07 1.60237e-05 3.52008e-06
      0.369719  0.00075671    1.86936e-05    2.48514e-07 1.91995e-05 3.4127e-06
      0.372561 0.000756804    2.23963e-05    2.73759e-07 2.38017e-05 3.30938e-06
      0.375403 0.000756899    2.62702e-05    2.98555e-07 2.83753e-05 3.20995e-06
      0.378245 0.000756994    2.98107e-05     3.20094e-07  3.16699e-05 3.11423e-06
      0.381087 0.00075709    3.02811e-05    3.22895e-07 3.28592e-05 3.02205e-06
      0.383929  0.000757187    2.85496e-05    3.12551e-07 3.16531e-05 2.93326e-06
      0.386771 0.000757284    2.4834e-05    2.89462e-07 2.82927e-05 2.84772e-06
      0.389613 0.000757383    2.0037e-05    2.57705e-07 2.34419e-05 2.76527e-06
      0.392454 0.000757481    1.47353e-05     2.18948e-07 1.80086e-05 2.68579e-06
      0.395296 0.000757581    1.05511e-05     1.84075e-07  1.29373e-05 2.60914e-06
      0.398137 0.000757681    7.37322e-06    1.5334e-07 9.01693e-06 2.53522e-06
      0.400979 0.000757782    5.56454e-06      1.33336e-07 6.74043e-06 2.46389e-06
      0.403821 0.000757884    5.384e-06    1.31241e-07 6.23714e-06 2.39506e-06
      0.406662 0.000757986    6.42307e-06    1.4327e-07  7.28398e-06 2.32862e-06
      0.409503 0.000758089    8.59463e-06     1.65848e-07 9.38465e-06 2.26447e-06
      0.412345 0.000758193    1.09164e-05    1.87369e-07 1.18942e-05 2.20252e-06
      0.415186 0.000758298    1.32712e-05    2.07217e-07 1.41599e-05 2.14267e-06
      0.418027 0.000758403    1.37906e-05    2.11369e-07 1.56486e-05 2.08484e-06
      0.420869 0.000758509    1.46254e-05    2.17929e-07 1.60385e-05 2.02896e-06
      0.42371 0.000758615     1.3823e-05    2.1157e-07 1.52592e-05 1.97493e-06
      0.426551 0.000758723    1.16358e-05    1.9346e-07 1.34796e-05 1.9227e-06
      0.429392 0.000758831    9.53728e-06    1.74691e-07 1.10497e-05 1.87218e-06
      0.432233 0.000758939    7.54385e-06    1.55122e-07  8.41406e-06 1.82331e-06
      0.435074 0.000759049    5.85682e-06    1.3669e-07 6.01534e-06 1.77602e-06
      0.437915 0.000759159    4.26893e-06    1.1701e-07 4.20841e-06  1.73027e-06
      0.440755 0.00075927    3.37195e-06    1.04397e-07 3.20046e-06 1.68597e-06
      0.443596 0.000759381    3.35903e-06    1.04353e-07  3.02611e-06 1.64309e-06
      0.446437 0.000759493     4.04303e-06    1.14208e-07 3.55841e-06 1.60156e-06
      0.449278 0.000759606    4.96735e-06    1.26348e-07 4.55019e-06 1.56134e-06
      0.452118 0.00075972    6.12598e-06    1.40177e-07 5.69432e-06 1.52238e-06
      0.454959    0.000759834    7.16144e-06    1.51584e-07  6.68933e-06 1.48462e-06
      0.457799 0.000759949    7.40615e-06    1.53745e-07 7.29708e-06 1.44803e-06
      0.46064 0.000760065    7.72294e-06     1.56703e-07 7.39523e-06 1.41253e-06
      0.46206 0.000760123    7.33004e-06    7.63907e-08 7.24383e-06 1.39518e-06
      0.46348 0.000760181    6.95363e-06    1.48639e-07  6.94937e-06 1.37811e-06
       0.4649 0.00076024    6.56573e-06    7.24209e-08 6.53355e-06 1.36134e-06
      0.467741 0.000760357    5.50875e-06    6.67289e-08 5.45482e-06  1.32852e-06
      0.470581 0.000760475    4.3694e-06    5.9369e-08  4.21326e-06 1.29667e-06
      0.473421  0.000760594    3.33963e-06    5.11571e-08 3.00896e-06 1.26576e-06
      0.476261 0.000760714     2.3004e-06    4.1948e-08 2.02664e-06 1.23577e-06
       0.479101 0.000760834    1.76975e-06    3.70106e-08 1.39109e-06 1.20667e-06
      0.481941  0.000760955    1.52434e-06    3.45107e-08 1.14938e-06 1.17841e-06
      0.484781 0.000761076    1.52157e-06      3.44531e-08 1.2698e-06 1.15098e-06
      0.487621 0.000761199    1.90608e-06    3.82458e-08 1.65632e-06 1.12435e-06
      0.490461 0.000761321    2.28924e-06    4.17309e-08 2.17383e-06 1.09848e-06
      0.493301 0.000761445    2.72344e-06    4.54473e-08 2.67836e-06 1.07335e-06
       0.496141 0.000761569    3.0069e-06    4.77504e-08 3.04569e-06 1.04894e-06
      0.49898 0.000761694    3.08152e-06    4.83506e-08 3.1932e-06 1.02522e-06
      0.50182 0.00076182    2.98244e-06    4.75792e-08 3.09132e-06 1.00216e-06
      0.504659 0.000761947    2.63733e-06    4.47817e-08 2.76349e-06 9.79752e-07
      0.507499 0.000762074    2.33257e-06    4.21767e-08 2.27586e-06 9.57967e-07
      0.510338 0.000762202    1.87371e-06    3.79812e-08  1.71987e-06  9.36784e-07
      0.513178 0.00076233    1.31076e-06    3.22145e-08 1.19175e-06 9.16184e-07
      0.516017 0.000762459    9.47194e-07    2.79442e-08 7.73286e-07 8.96148e-07
      0.518856  0.000762589    6.66091e-07    2.41803e-08 5.17434e-07 8.76657e-07
      0.521695 0.00076272    5.63896e-07    2.26878e-08 4.4107e-07  8.57694e-07
      0.524534   0.000762851    6.00935e-07     2.32631e-08 5.25462e-07 8.39241e-07
      0.527374 0.000762983    7.75855e-07    2.57581e-08  7.23616e-07 8.21282e-07
       0.530212 0.000763115    9.69025e-07    2.8274e-08 9.72301e-07 8.03802e-07
      0.533051 0.000763249    1.1845e-06    3.0857e-08 1.20595e-06 7.86785e-07
      0.53589 0.000763383    1.33779e-06    3.25539e-08 1.36955e-06 7.70217e-07
      0.538729 0.000763517    1.40592e-06    3.3273e-08 1.42809e-06 7.54083e-07
       0.541568 0.000763653    1.38821e-06     3.30639e-08 1.37117e-06 7.38369e-07
      0.544406 0.000763789    1.26304e-06    3.16686e-08 1.21237e-06 7.23064e-07
      0.547245 0.000763925    1.09731e-06    2.97383e-08 9.84051e-07 7.08153e-07
      0.550083 0.000764063    8.36551e-07    2.64141e-08 7.29038e-07 6.93625e-07
      0.552922 0.000764201    6.008e-07    2.30261e-08 4.91238e-07 6.79468e-07
      0.55576 0.00076434    4.4886e-07    2.05375e-08 3.07018e-07 6.65671e-07
      0.558599 0.000764479    3.04354e-07    1.78634e-08 1.98962e-07 6.52223e-07
      0.561437 0.000764619    2.90295e-07    1.74917e-08 1.72964e-07 6.39113e-07
      0.564275 0.00076476    2.99532e-07    1.74218e-08 2.18855e-07 6.26332e-07
      0.567113 0.000764901    3.73655e-07    1.86391e-08 3.13952e-07 6.13861e-07
      0.568532 0.000764972    3.96748e-07    1.14102e-08 3.70878e-07 6.07738e-07
      0.569951 0.000765044    5.03832e-07     2.10388e-08 4.2974e-07 6.01699e-07
      0.57137 0.000765115    5.16516e-07    1.3112e-08  4.85209e-07  5.95742e-07
      0.574208 0.000765258    6.14205e-07     1.45636e-08 5.75955e-07  5.84041e-07
      0.577046 0.000765402    6.34617e-07    1.47336e-08 6.24147e-07  5.7262e-07
      0.579884 0.000765547    6.8229e-07     1.45623e-08 6.20209e-07 5.61476e-07
      0.582722 0.000765692    6.48405e-07    1.38057e-08 5.66141e-07 5.50603e-07
      0.585559 0.000765838    5.65676e-07    1.30794e-08 4.73629e-07 5.39992e-07
       0.588397 0.000765984    4.82271e-07    1.23114e-08 3.60733e-07 5.29635e-07
       0.591234 0.000766131    3.16858e-07    1.06296e-08 2.47707e-07 5.19526e-07
        0.594072 0.000766279    2.25117e-07    9.59792e-09 1.52846e-07 5.09658e-07
      0.596909 0.000766428    1.37431e-07    8.50934e-09 8.91712e-08 5.00023e-07
      0.599746 0.000766577    1.08841e-07     8.1016e-09 6.24762e-08 4.90615e-07
      0.602584 0.000766727    9.94011e-08    7.95276e-09 7.09932e-08 4.81427e-07
      0.605421 0.000766878    1.29388e-07     8.35817e-09  1.06545e-07 4.72454e-07
      0.608258 0.000767029    1.81454e-07    9.03174e-09 1.56808e-07 4.63689e-07
      0.611095 0.000767181     2.25635e-07    9.56733e-09 2.0813e-07 4.55127e-07
      0.613932 0.000767334     2.76192e-07    1.01568e-08  2.48291e-07 4.46761e-07
      0.616769 0.000767487     3.24721e-07    1.06949e-08 2.68692e-07 4.38587e-07
      0.619605  0.000767641    3.32922e-07     1.07794e-08 2.65605e-07 4.306e-07
      0.622442 0.000767796    3.05976e-07     1.04778e-08 2.40349e-07 4.22794e-07
      0.625279  0.000767951     2.63485e-07    9.98892e-09 1.98472e-07  4.15164e-07
      0.628115 0.000768107    2.12185e-07    9.35749e-09 1.48213e-07 4.07706e-07
      0.630952 0.000768264    1.4624e-07    8.4887e-09 9.86158e-08 4.00415e-07
      0.633788 0.000768421    8.48019e-08    7.59585e-09 5.76926e-08 3.93286e-07
      0.636624 0.000768579    5.89603e-08    7.17619e-09 3.09911e-08 3.86315e-07
      0.639461 0.000768738    3.35693e-08    6.73936e-09 2.07948e-08  3.79499e-07
      0.642297 0.000768897     3.78274e-08    6.79982e-09 2.60396e-08 3.72832e-07
      0.645133 0.000769057    5.65045e-08    7.09398e-09  4.28845e-08 3.66311e-07
       0.647969 0.000769218    9.47825e-08    7.67346e-09 6.57535e-08 3.59933e-07
      0.650805 0.000769379    1.2495e-07    8.10085e-09 8.85962e-08 3.53692e-07
      0.653641 0.000769541    1.40923e-07    8.31477e-09 1.061e-07 3.47587e-07
      0.656476 0.000769704    1.5737e-07    8.56958e-09 1.14624e-07 3.41613e-07
       0.659312 0.000769867    1.41599e-07     8.38764e-09 1.12713e-07 3.35767e-07
      0.662148 0.000770031    1.3101e-07    8.27411e-09  1.01125e-07 3.30046e-07
      0.664983  0.000770196    1.01046e-07    7.88353e-09 8.24415e-08 3.24446e-07
      0.667819 0.000770361    7.78401e-08    7.57636e-09 6.03585e-08 3.18965e-07
      0.670654 0.000770527    3.96073e-08    6.93479e-09 3.8854e-08 3.13599e-07
      0.673489 0.000770694    3.31414e-08    6.78193e-09 2.13874e-08 3.08346e-07
      0.676325 0.000770861    1.58611e-08    6.43878e-09 1.02915e-08 3.03202e-07
      0.67916 0.000771029    7.14203e-09    6.23383e-09 6.44893e-09 2.98165e-07
      0.681995 0.000771198    1.98261e-08    6.4105e-09 9.28352e-09 2.93233e-07
      0.68483 0.000771367    2.45799e-08    6.49313e-09 1.70336e-08 2.88403e-07
      0.687665 0.000771537     6.11006e-08    7.10095e-09 2.72219e-08 2.83671e-07
      0.690499 0.000771708    5.23365e-08    6.95902e-09 3.72104e-08 2.79037e-07
      0.693334 0.000771879    7.03828e-08    7.24679e-09 4.47231e-08 2.74496e-07
      0.696169  0.000772051    8.0769e-08    7.4074e-09 4.82403e-08 2.70048e-07
       0.699003 0.000772224    6.23623e-08    7.10715e-09 4.72032e-08 2.6569e-07
      0.701838 0.000772397     7.50465e-08    7.29504e-09  4.20103e-08 2.6142e-07
      0.704672    0.000772571    4.74026e-08    6.83876e-09 3.38311e-08 2.57235e-07
       0.707506 0.000772745     3.48535e-08    6.61456e-09 2.42925e-08 2.53134e-07
      0.71034 0.000772921    2.36562e-08     6.40672e-09 1.51138e-08 2.49114e-07
      0.713175 0.000773097    1.5951e-08    6.26458e-09 7.76493e-09 2.45174e-07
      0.716009 0.000773273    7.3447e-09    6.10265e-09 3.2124e-09 2.41311e-07
      0.718843 0.00077345    1.38333e-08    6.21653e-09  1.7906e-09 2.37525e-07
      0.721676 0.000773628    1.04087e-08    6.14912e-09 3.20928e-09 2.33812e-07
      0.72451 0.000773807    2.00514e-08    6.3188e-09 6.68017e-09 2.30172e-07
      0.727344  0.000773986    3.40423e-08    6.58678e-09 1.11245e-08 2.26603e-07
      0.730177 0.000774166    2.93336e-08    6.5282e-09 1.54127e-08  2.23103e-07
      0.733011 0.000774346    2.68779e-08    6.50839e-09 1.85858e-08 2.1967e-07
      0.735844 0.000774527    3.38846e-08    6.65138e-09 2.00189e-08 2.16303e-07
      0.738678 0.000774709     3.86384e-08    6.75383e-09 1.95019e-08 2.13e-07
      0.741511 0.000774891    1.46218e-08    6.34285e-09 1.72308e-08 2.0976e-07
      0.744344 0.000775074    1.20083e-08    6.29982e-09 1.37228e-08 2.06582e-07
      0.747177   0.000775258    4.21304e-09    6.16242e-09 9.67924e-09 2.03464e-07
      0.75001 0.000775442    4.07787e-09    6.16365e-09 5.82946e-09 2.00404e-07
       0.752843   0.000775627   -1.31799e-08    5.84383e-09 2.7874e-09 1.97402e-07
      0.755675  0.000775813    7.36729e-09    6.1952e-09 9.47096e-10 1.94457e-07
      0.758508 0.000775999    8.78773e-10    6.04329e-09 4.32514e-10 1.91565e-07
      0.761341 0.000776186    9.23833e-10     6.01128e-09 1.10504e-09 1.88728e-07
      0.764173 0.000776374    1.96685e-08    6.32208e-09 2.62043e-09 1.85943e-07
      0.767006 0.000776562    1.20534e-08    6.15267e-09 4.51849e-09 1.83209e-07
      0.769838 0.000776751    1.68965e-09    5.99148e-09  6.32447e-09  1.80526e-07
      0.77267 0.000776941    2.24169e-08     6.39957e-09 7.64137e-09  1.77891e-07
      0.775502 0.000777131    1.85869e-08     6.36161e-09 8.21643e-09 1.75305e-07
      0.778334 0.000777321    6.19559e-09    6.16892e-09 7.97225e-09 1.72765e-07
      0.781166 0.000777513    5.51978e-09    6.1875e-09 7.00064e-09 1.70271e-07
      0.783998 0.000777705   -4.48333e-09    5.96685e-09  5.52485e-09  1.67822e-07
      0.78683 0.000777898    -3.22162e-09    5.95485e-09 3.84127e-09 1.65418e-07
      0.789661 0.000778091    9.0796e-09    6.14868e-09 2.56797e-09 1.63569e-07